Elapsed Seconds,Ax (g),Ay (g),Az (g),Mx (mG),My (mG),Mz (mG)
0.000,-0.0064,0.0026,-1.0003,-223.59,-42.84,-476.37
10.000,-0.0080,0.0015,-0.9996,-220.98,-41.77,-474.17
20.000,-0.8479,-0.4606,-0.1223,-430.01,-250.37,62.86
30.000,-0.5692,-0.3233,-0.3996,-257.81,-329.56,-141.97
40.000,-0.8955,0.8102,0.0530,-546.13,-12.49,-33.80
50.000,-0.7049,-0.6148,0.0796,-541.43,-82.63,-43.03
60.000,0.2900,-0.9488,-0.2522,-22.50,-453.60,83.49
70.000,-0.9960,-0.1155,-0.0150,-447.70,48.23,66.10
80.000,-0.9843,-0.1120,-0.0303,-536.06,125.96,71.93
90.000,-0.0170,0.9155,-0.3707,-122.10,496.38,16.85
100.000,0.1007,0.5597,-0.8104,-65.96,461.18,-292.16
110.000,1.0022,0.0887,0.0677,419.94,250.24,-93.84
120.000,-0.5582,-0.4182,-0.7038,-87.71,-73.37,-463.19
130.000,0.9841,0.1786,0.2426,438.11,-130.98,-61.33
140.000,0.6698,-0.6783,-0.1059,427.67,-273.79,105.32
150.000,-0.6657,-0.1552,0.6624,-350.99,-85.89,258.41
160.000,-0.9342,-0.1480,0.1397,-480.16,-227.72,146.43
170.000,0.9913,0.1491,-0.2475,405.31,164.17,-102.46
180.000,0.0563,-0.2423,-0.9696,-4.30,-318.79,-355.08
190.000,0.0522,-0.2436,-0.9681,-103.65,-389.65,-394.50
200.000,0.0141,0.0667,-0.8014,-213.73,-189.55,-472.62
210.000,0.0379,0.0787,-0.9885,-5.73,-217.01,-497.32
220.000,-0.0040,0.0458,-1.0013,-42.30,-226.58,-479.05
230.000,-0.0215,0.0332,-1.0093,-39.89,-224.00,-467.65
240.000,-0.0098,0.0356,-0.9973,-39.16,-224.54,-465.61
250.000,-0.0141,0.0412,-0.9990,-46.05,-217.90,-463.02
260.000,-0.0136,0.0394,-0.9978,-48.10,-213.03,-461.43
270.000,0.0540,0.0027,-0.9838,-127.77,88.53,-356.83
280.000,-0.0429,0.0390,-0.9960,-163.38,-99.05,-297.24
290.000,-0.0437,0.0405,-0.9970,-120.18,-193.23,-288.31
300.000,-0.0456,0.0403,-0.9963,-122.09,-195.93,-288.22
310.000,-0.0495,0.0402,-0.9956,-122.48,-193.73,-288.86
320.000,-0.0479,0.0405,-0.9950,-124.76,-191.95,-292.39
330.000,-0.0483,0.0410,-0.9947,-121.30,-191.44,-289.93
340.000,-0.0475,0.0403,-0.9949,-117.27,-191.08,-287.87
350.000,-0.0513,0.0426,-0.9952,-111.16,-184.78,-289.84
360.000,-0.0498,0.0414,-0.9946,-107.40,-184.78,-284.37
370.000,-0.0495,0.0416,-0.9946,-113.02,-179.44,-283.59
380.000,-0.0468,0.0435,-0.9943,-107.53,-176.93,-282.60
390.000,-0.0508,0.0419,-0.9939,-103.41,-179.73,-280.46
400.000,-0.0501,0.0423,-0.9932,-99.21,-176.67,-281.52
410.000,-0.0507,0.0434,-0.9944,-95.16,-174.28,-280.80
420.000,-0.0532,0.0433,-0.9935,-90.29,-168.13,-276.33
430.000,-0.0505,0.0416,-0.9931,-91.16,-167.34,-279.60
440.000,-0.0512,0.0414,-0.9921,-96.71,-167.16,-275.21
450.000,-0.0516,0.0426,-0.9922,-89.05,-163.86,-273.53
460.000,-0.0508,0.0445,-0.9927,-93.58,-162.22,-270.61
470.000,-0.0509,0.0429,-0.9919,-87.77,-165.51,-271.36
480.000,-0.0534,0.0443,-0.9924,-78.54,-162.51,-269.01
490.000,-0.0522,0.0436,-0.9917,-78.21,-159.91,-268.97
500.000,-0.0548,0.0449,-0.9916,-89.59,-156.09,-268.61
510.000,-0.0513,0.0437,-0.9919,-85.05,-157.72,-270.15
520.000,-0.0526,0.0449,-0.9909,-80.37,-153.39,-267.90
530.000,-0.0534,0.0446,-0.9895,-84.79,-152.87,-266.37
540.000,-0.0562,0.0439,-0.9900,-81.98,-148.63,-263.85
550.000,-0.0539,0.0443,-0.9903,-78.92,-146.87,-261.09
560.000,-0.0544,0.0454,-0.9905,-76.63,-147.31,-259.32
570.000,-0.0533,0.0448,-0.9899,-76.04,-147.02,-257.53
580.000,-0.0527,0.0450,-0.9899,-80.41,-142.03,-261.00
590.000,-0.0566,0.0460,-0.9905,-75.84,-143.34,-259.53
600.000,-0.0547,0.0453,-0.9890,-75.29,-142.74,-265.00
610.000,-0.0558,0.0460,-0.9903,-74.48,-139.38,-258.92
620.000,-0.0527,0.0446,-0.9902,-73.45,-138.16,-258.22
630.000,-0.0530,0.0442,-0.9890,-69.97,-136.95,-254.78
640.000,-0.0562,0.0456,-0.9896,-71.98,-137.85,-253.70
650.000,-0.0551,0.0451,-0.9883,-76.12,-136.15,-256.26
660.000,-0.0544,0.0454,-0.9884,-71.80,-135.13,-255.71
670.000,-0.0571,0.0451,-0.9873,-63.25,-137.50,-254.80
680.000,-0.0535,0.0458,-0.9878,-62.60,-133.65,-253.51
690.000,-0.0539,0.0465,-0.9888,-67.88,-131.40,-258.12
700.000,-0.0552,0.0462,-0.9899,-60.49,-135.64,-255.33
710.000,-0.0551,0.0452,-0.9877,-61.54,-129.59,-256.46
720.000,-0.0537,0.0447,-0.9890,-66.47,-124.43,-258.14
730.000,-0.0545,0.0452,-0.9874,-59.55,-123.68,-252.94
740.000,-0.0555,0.0455,-0.9871,-53.18,-127.39,-253.70
750.000,-0.0561,0.0457,-0.9873,-57.31,-126.62,-253.68
760.000,-0.0527,0.0457,-0.9880,-59.41,-122.75,-255.39
770.000,-0.0562,0.0458,-0.9871,-58.58,-123.76,-257.74
780.000,-0.0564,0.0465,-0.9887,-53.70,-122.25,-260.19
790.000,-0.0578,0.0474,-0.9874,-61.06,-119.29,-255.74
800.000,-0.0554,0.0464,-0.9867,-60.66,-121.99,-251.82
810.000,-0.0586,0.0469,-0.9880,-53.16,-120.85,-247.30
820.000,-0.0577,0.0469,-0.9879,-60.57,-125.15,-251.60
830.000,-0.0582,0.0463,-0.9875,-55.75,-120.16,-251.12
840.000,-0.0587,0.0465,-0.9881,-51.88,-119.43,-252.21
850.000,-0.0554,0.0476,-0.9877,-60.74,-119.36,-250.41
860.000,-0.0569,0.0473,-0.9871,-56.19,-120.43,-251.39
870.000,-0.0567,0.0474,-0.9872,-50.76,-114.59,-248.30
880.000,-0.0583,0.0465,-0.9879,-51.84,-118.57,-249.32
890.000,-0.0595,0.0453,-0.9867,-61.62,-121.37,-248.11
900.000,-0.0562,0.0477,-0.9871,-57.61,-118.27,-256.15
910.000,-0.0557,0.0464,-0.9870,-65.92,-110.41,-256.55
920.000,-0.0591,0.0467,-0.9873,-52.91,-114.41,-248.29
930.000,-0.0557,0.0457,-0.9873,-57.33,-113.23,-249.36
940.000,-0.0567,0.0471,-0.9877,-64.95,-115.12,-248.14
950.000,-0.0580,0.0472,-0.9872,-60.61,-112.74,-248.25
960.000,-0.0574,0.0466,-0.9878,-52.57,-112.86,-244.71
970.000,-0.0554,0.0461,-0.9866,-49.02,-114.71,-244.47
980.000,-0.0561,0.0461,-0.9872,-55.01,-111.76,-248.65
990.000,-0.0566,0.0480,-0.9873,-52.32,-112.54,-251.27
1000.000,-0.0572,0.0474,-0.9871,-56.55,-109.80,-248.34
1010.000,-0.0556,0.0461,-0.9866,-58.91,-112.54,-250.85
1020.000,-0.0581,0.0465,-0.9862,-63.42,-118.02,-247.23
1030.000,-0.0550,0.0467,-0.9860,-57.44,-113.82,-241.97
1040.000,-0.0586,0.0463,-0.9875,-55.75,-113.92,-246.63
1050.000,-0.0569,0.0460,-0.9875,-53.69,-111.73,-244.41
1060.000,-0.0586,0.0479,-0.9866,-60.62,-107.44,-242.68
1070.000,-0.0572,0.0466,-0.9866,-52.13,-111.00,-248.92
1080.000,-0.0536,0.0473,-0.9873,-49.38,-109.13,-248.62
1090.000,-0.0568,0.0474,-0.9864,-49.11,-110.62,-246.73
1100.000,-0.0564,0.0460,-0.9873,-47.17,-112.51,-251.28
1110.000,-0.0566,0.0470,-0.9872,-47.71,-111.38,-249.62
1120.000,-0.0578,0.0477,-0.9857,-52.52,-109.46,-246.98
1130.000,-0.0558,0.0470,-0.9862,-50.99,-110.62,-249.46
1140.000,-0.0539,0.0484,-0.9876,-51.66,-108.15,-250.52
1150.000,-0.0580,0.0465,-0.9871,-52.22,-107.03,-250.22
1160.000,-0.0564,0.0460,-0.9871,-55.72,-111.73,-247.28
1170.000,-0.0558,0.0476,-0.9867,-61.09,-109.37,-243.40
1180.000,-0.0581,0.0477,-0.9873,-53.16,-106.63,-242.28
1190.000,-0.0574,0.0470,-0.9874,-55.75,-106.20,-245.00
1200.000,-0.0563,0.0459,-0.9871,-58.53,-101.74,-244.37
1210.000,-0.0555,0.0472,-0.9870,-57.16,-105.21,-244.71
1220.000,-0.0582,0.0478,-0.9879,-56.13,-104.92,-242.38
1230.000,-0.0592,0.0459,-0.9860,-57.69,-103.66,-242.76
1240.000,-0.0564,0.0470,-0.9866,-52.17,-107.62,-242.57
1250.000,-0.0561,0.0477,-0.9868,-49.53,-109.94,-247.54
1260.000,-0.0569,0.0465,-0.9880,-51.51,-109.72,-244.38
1270.000,-0.0541,0.0484,-0.9881,-53.64,-106.46,-250.35
1280.000,-0.0601,0.0473,-0.9856,-64.43,-110.59,-247.24
1290.000,-0.0554,0.0469,-0.9870,-56.63,-105.97,-249.10
1300.000,-0.0554,0.0469,-0.9868,-53.94,-108.20,-247.50
1310.000,-0.0572,0.0466,-0.9864,-58.52,-107.70,-248.31
1320.000,-0.0579,0.0463,-0.9867,-52.67,-111.45,-242.63
1330.000,-0.0565,0.0466,-0.9864,-50.96,-110.83,-244.81
1340.000,-0.0577,0.0472,-0.9862,-47.74,-107.58,-243.12
1350.000,-0.0567,0.0475,-0.9870,-46.61,-109.37,-241.65
1360.000,-0.0564,0.0475,-0.9864,-56.11,-109.26,-247.93
1370.000,-0.0541,0.0458,-0.9880,-47.46,-107.33,-244.90
1380.000,-0.0566,0.0471,-0.9866,-53.74,-107.96,-239.83
1390.000,-0.0558,0.0472,-0.9870,-47.61,-107.74,-244.36
1400.000,-0.0532,0.0469,-0.9854,-51.30,-106.27,-243.37
1410.000,-0.0552,0.0482,-0.9880,-50.40,-104.88,-240.88
1420.000,-0.0565,0.0466,-0.9862,-55.55,-104.12,-243.32
1430.000,-0.0597,0.0474,-0.9861,-56.21,-111.04,-237.82
1440.000,-0.0561,0.0469,-0.9857,-50.50,-110.26,-242.48
1450.000,-0.0570,0.0460,-0.9865,-58.08,-107.83,-246.94
1460.000,-0.0569,0.0468,-0.9854,-54.90,-106.77,-245.01
1470.000,-0.0599,0.0460,-0.9859,-47.95,-109.17,-249.45
1480.000,-0.0547,0.0472,-0.9869,-48.89,-106.78,-246.53
1490.000,-0.0569,0.0465,-0.9860,-48.34,-108.43,-245.74
1500.000,-0.0575,0.0449,-0.9873,-50.49,-108.25,-245.87
1510.000,-0.0569,0.0467,-0.9863,-58.10,-108.53,-248.18
1520.000,-0.0555,0.0478,-0.9882,-47.89,-107.32,-244.49
1530.000,-0.0587,0.0471,-0.9872,-46.88,-107.74,-243.26
1540.000,-0.0560,0.0482,-0.9882,-49.79,-109.75,-244.52
1550.000,-0.0544,0.0474,-0.9868,-50.80,-111.61,-241.27
1560.000,-0.0587,0.0469,-0.9873,-53.30,-106.76,-241.73
1570.000,-0.0565,0.0471,-0.9878,-57.89,-106.81,-242.54
1580.000,-0.0582,0.0478,-0.9874,-52.04,-106.18,-247.75
1590.000,-0.0582,0.0456,-0.9869,-49.58,-105.92,-245.28
1600.000,-0.0570,0.0464,-0.9868,-50.23,-109.36,-246.43
1610.000,-0.0570,0.0474,-0.9868,-44.66,-104.20,-242.25
1620.000,-0.0563,0.0471,-0.9884,-45.61,-107.13,-247.50
1630.000,-0.0601,0.0467,-0.9863,-52.82,-111.46,-243.72
1640.000,-0.0570,0.0476,-0.9854,-52.81,-110.24,-244.25
1650.000,-0.0573,0.0456,-0.9856,-62.44,-111.04,-247.53
1660.000,-0.0573,0.0461,-0.9859,-54.49,-108.01,-244.49
1670.000,-0.0581,0.0469,-0.9859,-51.32,-106.85,-245.29
1680.000,-0.0549,0.0462,-0.9850,-55.25,-110.07,-245.75
1690.000,-0.0561,0.0453,-0.9856,-46.53,-112.26,-242.11
1700.000,-0.0555,0.0474,-0.9856,-50.90,-108.73,-241.77
1710.000,-0.0587,0.0474,-0.9857,-48.33,-108.67,-243.28
1720.000,-0.0529,0.0467,-0.9873,-49.23,-110.98,-242.76
1730.000,-0.0542,0.0480,-0.9871,-53.31,-106.91,-242.55
1740.000,-0.0556,0.0458,-0.9871,-52.16,-108.26,-239.43
1750.000,-0.0564,0.0475,-0.9858,-47.26,-106.84,-238.32
1760.000,-0.0544,0.0459,-0.9853,-46.54,-106.05,-239.68
1770.000,-0.0529,0.0463,-0.9870,-47.73,-107.04,-243.80
1780.000,-0.0558,0.0468,-0.9860,-42.93,-104.87,-238.57
1790.000,-0.0571,0.0465,-0.9858,-41.66,-103.46,-244.16
1800.000,-0.0571,0.0466,-0.9861,-49.87,-105.91,-244.60
1810.000,-0.0555,0.0468,-0.9865,-51.46,-108.43,-240.53
1820.000,-0.0531,0.0462,-0.9876,-49.97,-105.16,-240.61
1830.000,-0.0579,0.0469,-0.9870,-48.34,-107.89,-246.69
1840.000,-0.0561,0.0471,-0.9866,-51.79,-103.07,-240.71
1850.000,-0.0582,0.0465,-0.9865,-46.39,-103.90,-243.48
1860.000,-0.0567,0.0470,-0.9866,-46.61,-108.43,-243.14
1870.000,-0.0586,0.0482,-0.9881,-48.11,-104.15,-244.03
1880.000,-0.0568,0.0456,-0.9856,-53.57,-105.66,-242.53
1890.000,-0.0555,0.0465,-0.9856,-51.50,-103.19,-239.35
1900.000,-0.0557,0.0466,-0.9870,-50.98,-105.95,-239.26
1910.000,-0.0556,0.0469,-0.9854,-49.86,-106.96,-241.47
1920.000,-0.0534,0.0456,-0.9862,-52.36,-102.77,-240.02
1930.000,-0.0561,0.0460,-0.9864,-51.46,-106.57,-245.02
1940.000,-0.0549,0.0470,-0.9858,-49.35,-100.44,-246.02
1950.000,-0.0555,0.0467,-0.9874,-48.27,-99.12,-237.78
1960.000,-0.0558,0.0467,-0.9861,-57.52,-102.28,-242.33
1970.000,-0.0570,0.0457,-0.9855,-57.26,-103.93,-241.54
1980.000,-0.0567,0.0476,-0.9870,-53.92,-101.00,-243.14
1990.000,-0.0538,0.0476,-0.9866,-49.97,-103.44,-245.24
2000.000,-0.0553,0.0462,-0.9871,-49.93,-102.16,-242.21
2010.000,-0.0577,0.0459,-0.9852,-58.01,-105.17,-243.61
2020.000,-0.0573,0.0475,-0.9867,-49.71,-106.68,-240.64
2030.000,-0.0565,0.0473,-0.9858,-59.19,-107.21,-243.91
2040.000,-0.0556,0.0455,-0.9868,-54.47,-107.58,-243.11
2050.000,-0.0558,0.0466,-0.9862,-56.10,-103.39,-240.85
2060.000,-0.0567,0.0461,-0.9848,-52.14,-99.85,-236.96
2070.000,-0.0551,0.0468,-0.9866,-51.22,-102.81,-240.98
2080.000,-0.0557,0.0470,-0.9872,-53.53,-104.79,-239.10
2090.000,-0.0564,0.0473,-0.9872,-51.18,-102.74,-235.78
2100.000,-0.0574,0.0464,-0.9855,-48.93,-102.59,-241.94
2110.000,-0.0563,0.0468,-0.9860,-54.78,-102.16,-239.46
2120.000,-0.0560,0.0474,-0.9868,-53.17,-101.08,-237.80
2130.000,-0.0584,0.0464,-0.9871,-49.44,-101.66,-234.53
2140.000,-0.0562,0.0456,-0.9856,-51.49,-96.40,-234.99
2150.000,-0.0546,0.0471,-0.9870,-43.99,-99.24,-240.12
2160.000,-0.0549,0.0459,-0.9844,-45.53,-98.61,-236.41
2170.000,-0.0564,0.0468,-0.9866,-45.56,-100.53,-236.44
2180.000,-0.0565,0.0460,-0.9857,-54.46,-99.73,-241.48
2190.000,-0.0573,0.0465,-0.9860,-53.80,-103.44,-240.58
2200.000,-0.0571,0.0466,-0.9866,-61.71,-104.92,-240.72
2210.000,-0.0564,0.0459,-0.9866,-58.69,-106.02,-236.23
2220.000,-0.0553,0.0484,-0.9876,-50.26,-103.70,-244.70
2230.000,-0.0562,0.0477,-0.9860,-50.55,-98.13,-239.13
2240.000,-0.0573,0.0471,-0.9862,-60.22,-101.40,-242.31
2250.000,-0.0557,0.0460,-0.9854,-49.56,-98.58,-240.51
2260.000,-0.0569,0.0460,-0.9863,-50.97,-103.94,-243.33
2270.000,-0.0583,0.0467,-0.9858,-46.65,-103.59,-241.14
2280.000,-0.0552,0.0465,-0.9861,-44.62,-101.87,-242.63
2290.000,-0.0545,0.0477,-0.9866,-42.56,-99.27,-240.67
2300.000,-0.0557,0.0473,-0.9868,-47.86,-98.90,-241.20
2310.000,-0.0558,0.0460,-0.9855,-44.29,-98.60,-243.94
2320.000,-0.0558,0.0465,-0.9881,-48.37,-102.24,-245.09
2330.000,-0.0562,0.0458,-0.9860,-55.70,-103.73,-245.10
2340.000,-0.0569,0.0468,-0.9884,-60.71,-105.47,-239.23
2350.000,-0.0572,0.0462,-0.9846,-53.80,-104.76,-237.18
2360.000,-0.0567,0.0468,-0.9846,-53.54,-103.08,-244.41
2370.000,-0.0573,0.0478,-0.9862,-49.04,-101.34,-240.55
2380.000,-0.0565,0.0464,-0.9863,-46.62,-104.07,-236.09
2390.000,-0.0565,0.0466,-0.9864,-54.34,-101.89,-239.05
2400.000,-0.0583,0.0474,-0.9867,-60.94,-102.32,-240.41
2410.000,-0.0547,0.0469,-0.9858,-51.88,-100.16,-239.57
2420.000,-0.0564,0.0468,-0.9860,-45.19,-102.36,-239.48
2430.000,-0.0551,0.0468,-0.9869,-51.62,-101.56,-240.55
2440.000,-0.0536,0.0477,-0.9868,-57.24,-103.89,-239.21
2450.000,-0.0568,0.0463,-0.9866,-59.03,-99.08,-241.59
2460.000,-0.0560,0.0474,-0.9862,-53.40,-97.79,-238.84
2470.000,-0.0556,0.0463,-0.9848,-50.93,-103.75,-238.95
2480.000,-0.0564,0.0479,-0.9855,-56.73,-101.24,-235.06
2490.000,-0.0560,0.0469,-0.9868,-55.99,-104.40,-244.29
2500.000,-0.0566,0.0451,-0.9858,-51.93,-103.06,-240.44
2510.000,-0.0564,0.0468,-0.9866,-59.19,-107.86,-241.05
2520.000,-0.0581,0.0465,-0.9876,-51.47,-103.01,-235.78
2530.000,-0.0561,0.0474,-0.9867,-57.76,-106.57,-245.00
2540.000,-0.0569,0.0467,-0.9856,-55.16,-106.72,-241.45
2550.000,-0.0585,0.0477,-0.9856,-56.33,-108.07,-242.02
2560.000,-0.0537,0.0461,-0.9862,-43.85,-107.88,-239.03
2570.000,-0.0552,0.0469,-0.9862,-47.95,-105.05,-239.52
2580.000,-0.0562,0.0468,-0.9861,-46.75,-100.31,-242.73
2590.000,-0.0578,0.0453,-0.9856,-49.78,-101.77,-243.16
2600.000,-0.0582,0.0477,-0.9848,-53.81,-103.98,-240.45
2610.000,-0.0547,0.0477,-0.9864,-53.37,-102.78,-242.08
2620.000,-0.0576,0.0462,-0.9871,-48.36,-102.35,-243.45
2630.000,-0.0541,0.0466,-0.9860,-47.79,-102.22,-243.31
2640.000,-0.0562,0.0475,-0.9864,-52.67,-104.93,-237.73
2650.000,-0.0559,0.0470,-0.9858,-43.64,-104.70,-237.33
2660.000,-0.0550,0.0475,-0.9866,-44.49,-104.40,-236.51
2670.000,-0.0560,0.0459,-0.9865,-43.07,-103.79,-239.92
2680.000,-0.0556,0.0469,-0.9868,-43.73,-100.48,-240.55
2690.000,-0.0553,0.0465,-0.9855,-33.23,-99.95,-236.05
2700.000,-0.0563,0.0459,-0.9866,-43.53,-106.23,-238.73
2710.000,-0.0553,0.0474,-0.9858,-40.57,-107.59,-242.73
2720.000,-0.0583,0.0476,-0.9865,-44.21,-104.03,-239.38
2730.000,-0.0560,0.0456,-0.9852,-42.04,-102.30,-240.31
2740.000,-0.0584,0.0465,-0.9864,-45.78,-105.05,-235.69
2750.000,-0.0549,0.0465,-0.9867,-51.24,-97.00,-237.88
2760.000,-0.0559,0.0461,-0.9864,-43.12,-106.01,-241.60
2770.000,-0.0577,0.0492,-0.9867,-44.00,-100.31,-238.36
2780.000,-0.0569,0.0470,-0.9860,-44.36,-103.77,-240.33
2790.000,-0.0538,0.0474,-0.9870,-41.25,-99.79,-235.89
2800.000,-0.0582,0.0459,-0.9863,-43.58,-101.55,-237.83
2810.000,-0.0564,0.0466,-0.9862,-40.34,-104.62,-236.66
2820.000,-0.0562,0.0475,-0.9883,-44.39,-99.17,-236.15
2830.000,-0.0557,0.0479,-0.9858,-42.30,-101.45,-238.79
2840.000,-0.0563,0.0466,-0.9856,-49.58,-99.55,-241.07
2850.000,-0.0573,0.0463,-0.9863,-46.70,-97.97,-241.74
2860.000,-0.0562,0.0475,-0.9861,-47.12,-97.42,-242.41
2870.000,-0.0575,0.0480,-0.9861,-40.99,-99.18,-241.22
2880.000,-0.0547,0.0465,-0.9860,-48.47,-93.78,-239.34
2890.000,-0.0564,0.0480,-0.9871,-46.68,-97.79,-239.00
2900.000,-0.0562,0.0472,-0.9856,-50.94,-96.71,-236.92
2910.000,-0.0557,0.0467,-0.9864,-39.80,-97.93,-238.88
2920.000,-0.0577,0.0460,-0.9861,-43.70,-100.43,-236.58
2930.000,-0.0566,0.0489,-0.9864,-43.77,-103.08,-239.36
2940.000,-0.0581,0.0467,-0.9853,-44.84,-100.26,-235.75
2950.000,-0.0554,0.0472,-0.9871,-47.79,-103.55,-240.05
2960.000,-0.0572,0.0472,-0.9866,-44.68,-99.32,-236.83
2970.000,-0.0561,0.0471,-0.9867,-41.88,-101.62,-240.16
2980.000,-0.0566,0.0467,-0.9856,-44.67,-105.00,-240.49
2990.000,-0.0571,0.0461,-0.9871,-41.86,-99.84,-240.96
3000.000,-0.0571,0.0487,-0.9861,-43.26,-99.22,-237.93
3010.000,-0.0560,0.0475,-0.9877,-40.11,-98.64,-240.67
3020.000,-0.0550,0.0469,-0.9856,-41.66,-98.28,-236.55
3030.000,-0.0560,0.0458,-0.9858,-43.31,-95.07,-235.40
3040.000,-0.0557,0.0476,-0.9862,-42.82,-98.68,-237.79
3050.000,-0.0592,0.0455,-0.9876,-41.43,-100.78,-238.51
3060.000,-0.0585,0.0473,-0.9875,-42.95,-105.16,-239.81
3070.000,-0.0554,0.0471,-0.9866,-50.40,-107.01,-235.58
3080.000,-0.0555,0.0458,-0.9866,-44.07,-104.56,-237.61
3090.000,-0.0551,0.0476,-0.9856,-47.11,-98.45,-237.64
3100.000,-0.0591,0.0475,-0.9867,-51.50,-102.79,-240.03
3110.000,-0.0599,0.0472,-0.9871,-49.62,-102.41,-239.34
3120.000,-0.0581,0.0469,-0.9856,-48.45,-101.44,-237.55
3130.000,-0.0544,0.0462,-0.9864,-47.04,-103.11,-236.75
3140.000,-0.0597,0.0479,-0.9878,-50.95,-103.64,-241.00
3150.000,-0.0558,0.0468,-0.9865,-51.44,-100.03,-239.43
3160.000,-0.0053,0.0319,-0.8421,-101.38,19.36,-252.17
3170.000,-0.0331,0.0371,-0.9922,205.47,-18.10,-455.51
3180.000,-0.0265,0.0428,-0.9876,249.21,-29.36,-479.60
3190.000,-0.0286,0.0435,-0.9872,253.12,-34.41,-480.92
3200.000,-0.0262,0.0479,-0.9879,264.09,-30.36,-480.06
3210.000,-0.0282,0.0432,-0.9884,249.74,-31.71,-479.78
3220.000,-0.0285,0.0430,-0.9879,256.12,-35.81,-478.63
3230.000,-0.0294,0.0424,-0.9852,250.89,-30.79,-481.27
3240.000,-0.0258,0.0425,-0.9865,254.16,-32.91,-480.49
3250.000,-0.0314,0.0419,-0.9870,249.42,-36.02,-474.37
3260.000,-0.0261,0.0421,-0.9865,254.44,-34.78,-476.28
3270.000,-0.0263,0.0432,-0.9885,255.87,-36.01,-473.43
3280.000,-0.0270,0.0431,-0.9868,247.45,-34.18,-472.83
3290.000,-0.0298,0.0421,-0.9869,250.44,-33.48,-477.75
3300.000,-0.0298,0.0435,-0.9880,241.95,-35.39,-479.27
3310.000,-0.0286,0.0436,-0.9870,249.42,-35.35,-475.32
3320.000,-0.0282,0.0434,-0.9878,260.10,-37.02,-480.57
3330.000,-0.0286,0.0435,-0.9880,252.01,-34.31,-475.99
3340.000,-0.0286,0.0424,-0.9887,253.14,-35.18,-477.10
3350.000,-0.0281,0.0412,-0.9872,251.65,-37.11,-480.01
3360.000,-0.0267,0.0415,-0.9878,248.11,-34.18,-482.01
3370.000,-0.0276,0.0412,-0.9864,250.64,-38.82,-475.93
3380.000,-0.0281,0.0425,-0.9884,251.41,-34.22,-480.23
3390.000,-0.0288,0.0408,-0.9868,253.82,-34.86,-483.26
3400.000,-0.0274,0.0415,-0.9868,254.81,-34.50,-485.58
3410.000,-0.0297,0.0445,-0.9883,256.68,-34.66,-483.95
3420.000,-0.0278,0.0415,-0.9862,254.66,-35.98,-482.87
3430.000,-0.0298,0.0420,-0.9882,250.75,-31.46,-480.32
3440.000,-0.0274,0.0405,-0.9862,247.68,-35.49,-477.78
3450.000,-0.0309,0.0402,-0.9846,249.98,-33.93,-481.18
3460.000,-0.0286,0.0411,-0.9866,260.01,-33.58,-480.65
3470.000,-0.0285,0.0422,-0.9872,255.39,-34.76,-483.13
3480.000,-0.0298,0.0424,-0.9874,251.16,-32.31,-481.02
3490.000,-0.0292,0.0426,-0.9875,250.85,-33.40,-481.04
3500.000,-0.0295,0.0429,-0.9870,252.70,-32.52,-484.32
3510.000,-0.0261,0.0421,-0.9867,253.16,-31.43,-484.03
3520.000,-0.0277,0.0416,-0.9884,256.28,-33.79,-481.61
3530.000,-0.0291,0.0410,-0.9867,257.16,-32.31,-481.99
3540.000,-0.0259,0.0417,-0.9876,253.40,-35.35,-479.43
3550.000,-0.0289,0.0415,-0.9880,252.54,-35.88,-479.17
3560.000,-0.0279,0.0418,-0.9870,259.57,-33.87,-482.02
3570.000,-0.0279,0.0421,-0.9884,259.01,-32.63,-483.10
3580.000,-0.0282,0.0406,-0.9876,260.36,-31.74,-476.24
3590.000,-0.0289,0.0413,-0.9868,256.69,-34.11,-484.21
3600.000,-0.0288,0.0425,-0.9877,246.84,-30.94,-487.84
3610.000,-0.0277,0.0422,-0.9861,256.48,-32.10,-477.88
3620.000,-0.0302,0.0415,-0.9878,257.19,-31.33,-480.61
3630.000,-0.0301,0.0421,-0.9880,255.38,-36.91,-480.15
3640.000,-0.0307,0.0420,-0.9876,253.82,-37.24,-476.45
3650.000,-0.0293,0.0423,-0.9875,258.14,-35.30,-478.35
3660.000,-0.0294,0.0431,-0.9867,256.39,-37.45,-477.28
3670.000,-0.0298,0.0415,-0.9870,253.68,-36.71,-477.81
3680.000,-0.0260,0.0424,-0.9874,257.79,-31.41,-475.82
3690.000,-0.0276,0.0425,-0.9881,255.57,-36.29,-474.39
3700.000,-0.0275,0.0423,-0.9878,253.32,-32.85,-477.20
3710.000,-0.0274,0.0417,-0.9869,254.38,-36.34,-480.14
3720.000,-0.0294,0.0404,-0.9872,250.06,-37.77,-480.84
3730.000,-0.0310,0.0416,-0.9861,252.73,-33.27,-478.58
3740.000,-0.0240,0.0502,-0.9995,187.91,23.10,-492.72
3750.000,-0.0385,0.0595,-1.0102,118.82,271.13,-459.25
3760.000,-0.0277,0.0336,-0.9896,-69.37,217.30,-383.06
3770.000,-0.0210,0.0319,-0.9871,-85.79,215.87,-372.23
3780.000,0.0792,0.0710,-0.5089,-42.06,178.80,-414.55
3790.000,-0.0063,-0.9954,0.0235,-48.32,-447.18,81.45
3800.000,-0.0056,-0.9960,0.0236,-54.85,-542.24,151.12
3810.000,-0.0075,-0.9945,0.0238,-55.96,-541.49,153.73
3820.000,-0.0091,-0.9956,0.0246,-59.73,-544.29,154.52
3830.000,-0.0113,-0.9952,0.0239,-61.83,-541.24,153.61
3840.000,-0.0077,-0.9965,0.0243,-65.86,-541.59,151.70
3850.000,-0.0054,-0.9964,0.0245,-69.85,-540.28,151.04
3860.000,-0.0076,-0.9951,0.0236,-68.69,-540.01,152.41
3870.000,-0.0090,-0.9948,0.0248,-63.67,-539.03,151.32
3880.000,-0.0078,-0.9942,0.0230,-66.52,-538.42,151.89
3890.000,-0.0091,-0.9961,0.0248,-72.02,-540.67,149.40
3900.000,-0.0058,-0.9950,0.0227,-66.52,-547.18,153.80
3910.000,-0.0082,-0.9948,0.0222,-66.78,-545.93,154.50
3920.000,-0.0054,-0.9940,0.0221,-72.72,-541.83,154.03
3930.000,-0.0060,-0.9942,0.0232,-65.68,-547.77,152.42
3940.000,-0.0065,-0.9958,0.0230,-69.68,-548.19,155.57
3950.000,-0.0063,-0.9948,0.0234,-64.92,-546.90,156.81
3960.000,-0.0064,-0.9961,0.0240,-62.89,-544.11,152.88
3970.000,-0.0060,-0.9957,0.0227,-76.94,-544.25,151.54
3980.000,-0.0060,-0.9955,0.0232,-69.64,-545.33,153.56
3990.000,-0.0042,-0.9941,0.0214,-70.02,-543.11,154.83
4000.000,-0.0051,-0.9961,0.0237,-74.17,-549.26,150.63
4010.000,-0.0065,-0.9954,0.0227,-79.59,-548.98,153.25
4020.000,-0.0041,-0.9957,0.0223,-76.00,-549.97,156.24
4030.000,-0.0063,-0.9956,0.0220,-80.66,-545.63,155.22
4040.000,-0.0051,-0.9957,0.0206,-80.51,-550.81,148.15
4050.000,-0.0031,-0.9951,0.0231,-76.95,-550.39,144.46
4060.000,-0.0063,-0.9954,0.0238,-76.65,-543.46,149.22
4070.000,-0.0036,-0.9951,0.0222,-76.72,-547.71,149.84
4080.000,-0.0038,-0.9950,0.0236,-77.88,-547.85,147.92
4090.000,-0.0052,-0.9956,0.0212,-74.18,-556.33,146.27
4100.000,-0.0018,-0.9950,0.0221,-77.96,-551.44,146.09
4110.000,-0.0058,-0.9960,0.0224,-81.53,-552.15,149.23
4120.000,-0.0041,-0.9946,0.0214,-77.42,-554.43,149.60
4130.000,-0.0026,-0.9963,0.0221,-78.62,-556.77,147.23
4140.000,-0.0020,-0.9948,0.0214,-81.70,-559.24,143.09
4150.000,-0.0047,-0.9958,0.0221,-88.01,-552.47,145.82
4160.000,-0.0033,-0.9962,0.0226,-84.18,-556.07,149.86
4170.000,-0.0056,-0.9955,0.0214,-79.20,-558.10,149.68
4180.000,-0.0013,-0.9951,0.0217,-83.80,-558.70,148.58
4190.000,-0.0034,-0.9964,0.0214,-79.63,-557.03,146.55
4200.000,-0.0046,-0.9969,0.0202,-77.56,-563.32,151.64
4210.000,-0.0032,-0.9952,0.0212,-94.68,-565.78,146.98
4220.000,-0.0008,-0.9958,0.0201,-86.60,-563.03,149.20
4230.000,-0.0021,-0.9954,0.0203,-80.34,-558.59,152.00
4240.000,-0.0015,-0.9953,0.0210,-88.89,-563.13,148.79
4250.000,-0.0015,-0.9963,0.0212,-78.55,-561.82,149.89
4260.000,-0.0012,-0.9949,0.0201,-75.29,-562.88,147.54
4270.000,-0.0028,-0.9958,0.0204,-84.71,-561.96,149.90
4280.000,-0.0042,-0.9960,0.0203,-81.52,-559.57,149.11
4290.000,-0.0025,-0.9950,0.0200,-85.86,-561.68,148.81
4300.000,-0.0001,-0.9975,0.0210,-85.91,-564.16,148.09
4310.000,-0.0011,-0.9956,0.0205,-90.02,-560.01,143.78
4320.000,-0.0012,-0.9964,0.0218,-85.57,-560.23,144.73
4330.000,-0.0007,-0.9960,0.0204,-84.77,-563.40,145.36
4340.000,-0.0015,-0.9971,0.0204,-95.71,-566.74,145.19
4350.000,0.0004,-0.9964,0.0190,-87.92,-564.14,146.31
4360.000,-0.0015,-0.9969,0.0206,-91.62,-570.13,144.58
4370.000,0.0005,-0.9959,0.0197,-88.66,-571.74,142.49
4380.000,-0.0008,-0.9969,0.0204,-91.72,-567.92,145.98
4390.000,-0.0020,-0.9966,0.0199,-85.79,-564.08,143.84
4400.000,-0.0019,-0.9961,0.0205,-86.29,-567.25,142.29
4410.000,-0.0001,-0.9961,0.0195,-97.62,-568.91,144.34
4420.000,-0.0004,-0.9954,0.0190,-93.07,-570.54,143.07
4430.000,-0.0004,-0.9969,0.0204,-95.77,-570.03,145.96
4440.000,-0.0016,-0.9967,0.0201,-96.04,-568.55,143.38
4450.000,0.0000,-0.9964,0.0187,-97.16,-566.89,142.59
4460.000,0.0007,-0.9969,0.0205,-91.63,-570.94,145.93
4470.000,0.0007,-0.9971,0.0201,-91.46,-569.04,144.32
4480.000,-0.0012,-0.9968,0.0206,-99.21,-569.71,144.19
4490.000,0.0005,-0.9962,0.0206,-90.85,-573.37,140.01
4500.000,-0.0010,-0.9972,0.0210,-97.11,-571.96,143.33
4510.000,0.0009,-0.9965,0.0199,-96.22,-568.74,138.86
4520.000,0.0009,-0.9965,0.0195,-96.74,-573.95,139.19
4530.000,0.0009,-0.9963,0.0192,-107.98,-568.68,135.60
4540.000,0.0007,-0.9975,0.0194,-94.97,-571.09,139.78
4550.000,-0.0010,-0.9962,0.0186,-97.43,-570.96,135.95
4560.000,0.0013,-0.9962,0.0200,-97.24,-569.02,137.49
4570.000,0.0019,-0.9952,0.0188,-98.87,-573.47,140.98
4580.000,0.0007,-0.9964,0.0204,-101.21,-568.47,141.06
4590.000,0.0010,-0.9971,0.0200,-98.47,-574.06,138.23
4600.000,0.0006,-0.9961,0.0207,-99.24,-576.41,136.41
4610.000,0.0012,-0.9962,0.0186,-100.52,-577.56,140.50
4620.000,0.0053,-0.9975,0.0185,-97.18,-574.22,138.50
4630.000,0.0006,-0.9966,0.0184,-95.71,-571.40,136.49
4640.000,0.0017,-0.9957,0.0188,-98.63,-575.03,137.67
4650.000,-0.0012,-0.9970,0.0192,-101.73,-572.22,137.31
4660.000,0.0042,-0.9969,0.0188,-97.57,-580.12,138.27
4670.000,-0.0006,-0.9967,0.0193,-99.51,-575.44,136.16
4680.000,0.0003,-0.9964,0.0176,-105.52,-575.84,137.80
4690.000,0.0000,-0.9982,0.0193,-109.82,-576.03,137.54
4700.000,0.0023,-0.9978,0.0198,-105.65,-574.49,136.46
4710.000,-0.0004,-0.9964,0.0179,-111.44,-577.02,133.55
4720.000,0.0014,-0.9979,0.0194,-114.43,-576.38,135.21
4730.000,0.0017,-0.9970,0.0184,-110.45,-578.92,136.53
4740.000,-0.0004,-0.9988,0.0196,-103.87,-579.59,137.60
4750.000,-0.0017,-0.9971,0.0183,-100.95,-577.29,139.69
4760.000,0.0020,-0.9965,0.0177,-100.31,-579.57,134.72
4770.000,0.0011,-0.9962,0.0193,-98.64,-583.14,137.12
4780.000,0.0024,-0.9954,0.0179,-102.27,-584.63,133.14
4790.000,0.0012,-0.9978,0.0196,-103.90,-587.88,133.91
4800.000,0.0014,-0.9974,0.0200,-104.97,-583.87,134.52
4810.000,0.0018,-0.9980,0.0190,-113.28,-583.70,133.86
4820.000,0.0029,-0.9980,0.0192,-104.12,-584.70,134.92
4830.000,0.0011,-0.9978,0.0176,-103.00,-585.30,133.13
4840.000,0.0049,-0.9964,0.0177,-106.15,-585.10,133.00
4850.000,0.0020,-0.9982,0.0177,-109.31,-586.66,134.90
4860.000,0.0022,-0.9956,0.0173,-101.22,-587.89,127.47
4870.000,0.0022,-0.9974,0.0184,-110.24,-589.56,132.39
4880.000,0.0004,-0.9959,0.0179,-104.28,-591.64,129.74
4890.000,0.0027,-0.9981,0.0189,-100.82,-590.87,130.71
4900.000,0.0027,-0.9977,0.0171,-101.94,-589.48,130.73
4910.000,0.0052,-0.9981,0.0180,-106.60,-586.19,133.12
4920.000,-0.0003,-0.9960,0.0170,-106.38,-589.77,132.79
4930.000,0.0017,-0.9968,0.0180,-100.24,-591.53,133.57
4940.000,0.0042,-0.9972,0.0174,-101.36,-591.06,136.04
4950.000,0.0034,-0.9976,0.0190,-112.60,-586.58,135.59
4960.000,0.0028,-0.9971,0.0180,-112.70,-591.14,133.33
4970.000,0.0027,-0.9961,0.0174,-110.03,-592.08,128.65
4980.000,0.0005,-0.9980,0.0190,-113.68,-588.95,131.17
4990.000,0.0031,-0.9973,0.0181,-111.49,-593.84,128.90
5000.000,0.0015,-0.9958,0.0170,-108.75,-592.14,126.18
5010.000,0.0022,-0.9967,0.0183,-110.70,-590.28,129.23
5020.000,0.0024,-0.9959,0.0182,-112.04,-592.47,127.83
5030.000,0.0044,-0.9976,0.0168,-105.58,-590.70,125.79
5040.000,0.0039,-0.9980,0.0185,-103.86,-589.01,121.84
5050.000,0.0040,-0.9965,0.0178,-104.46,-592.24,125.90
5060.000,0.0027,-0.9977,0.0178,-106.27,-589.85,127.31
5070.000,0.0035,-0.9981,0.0188,-115.04,-591.46,126.48
5080.000,0.0057,-0.9975,0.0180,-111.86,-590.41,127.59
5090.000,0.0043,-0.9969,0.0170,-109.11,-597.44,130.34
5100.000,0.0045,-0.9967,0.0178,-108.56,-596.57,124.33
5110.000,0.0039,-0.9985,0.0182,-111.55,-595.94,125.31
5120.000,0.0044,-0.9981,0.0172,-105.48,-599.68,122.77
5130.000,0.0033,-0.9968,0.0182,-107.35,-592.76,123.16
5140.000,0.0050,-0.9974,0.0168,-108.71,-597.24,124.87
5150.000,0.0033,-0.9960,0.0162,-108.68,-595.07,123.53
5160.000,0.0053,-0.9964,0.0168,-111.90,-592.88,128.09
5170.000,0.0053,-0.9981,0.0166,-111.15,-597.08,123.51
5180.000,0.0034,-0.9974,0.0168,-105.61,-600.06,124.54
5190.000,0.0029,-0.9959,0.0153,-110.08,-602.01,125.61
5200.000,0.0036,-0.9961,0.0167,-107.72,-598.07,125.95
5210.000,0.0043,-0.9965,0.0172,-108.62,-598.80,121.69
5220.000,0.0046,-0.9973,0.0172,-104.09,-601.78,121.64
5230.000,0.0047,-0.9978,0.0175,-111.57,-603.82,122.03
5240.000,0.0040,-0.9978,0.0172,-107.95,-603.42,126.27
5250.000,0.0038,-0.9972,0.0164,-108.67,-602.48,123.96
5260.000,0.0007,-0.9979,0.0178,-121.35,-605.56,120.51
5270.000,0.0048,-0.9977,0.0174,-111.21,-608.61,123.59
5280.000,0.0047,-0.9986,0.0167,-110.53,-604.29,129.27
5290.000,0.0049,-0.9966,0.0162,-115.99,-604.09,125.18
5300.000,0.0034,-0.9972,0.0177,-111.35,-601.03,125.50
5310.000,0.0031,-0.9978,0.0165,-107.86,-605.90,125.82
5320.000,0.0061,-0.9976,0.0167,-113.02,-606.21,125.96
5330.000,0.0050,-1.0002,0.0170,-107.44,-605.81,123.49
5340.000,0.0036,-0.9991,0.0180,-108.43,-604.44,121.46
5350.000,0.0043,-0.9964,0.0166,-110.17,-606.29,124.04
5360.000,0.0032,-0.9965,0.0174,-106.15,-606.36,124.85
5370.000,0.0058,-0.9976,0.0161,-113.24,-607.95,118.68
5380.000,0.0035,-0.9967,0.0169,-118.64,-607.36,123.22
5390.000,0.0033,-0.9979,0.0167,-109.61,-606.19,122.12
5400.000,0.0046,-0.9971,0.0161,-107.47,-605.87,119.11
5410.000,0.0035,-0.9975,0.0176,-112.31,-607.04,126.36
5420.000,0.0047,-0.9982,0.0165,-110.26,-603.42,123.26
5430.000,0.0028,-0.9974,0.0157,-108.85,-606.40,128.00
5440.000,0.0041,-0.9986,0.0157,-109.13,-605.32,126.65
5450.000,0.0055,-0.9974,0.0154,-116.16,-606.00,125.84
5460.000,0.0052,-0.9974,0.0155,-107.02,-606.63,124.44
5470.000,0.0054,-0.9983,0.0162,-111.14,-603.70,120.93
5480.000,0.0070,-0.9975,0.0168,-114.76,-607.41,125.54
5490.000,0.0049,-0.9962,0.0154,-111.20,-607.12,121.97
5500.000,0.0027,-0.9981,0.0153,-111.50,-608.99,125.23
5510.000,0.0043,-0.9975,0.0159,-117.08,-607.94,123.34
5520.000,0.0061,-0.9980,0.0160,-109.78,-609.55,127.13
5530.000,0.0044,-0.9973,0.0164,-112.10,-609.70,122.89
5540.000,0.0043,-0.9967,0.0161,-115.68,-609.10,121.54
5550.000,0.0053,-0.9985,0.0164,-106.05,-607.89,123.59
5560.000,0.0048,-0.9973,0.0160,-107.95,-608.60,119.62
5570.000,0.0070,-0.9968,0.0161,-110.99,-611.52,121.76
5580.000,0.0051,-0.9985,0.0167,-116.95,-607.04,118.97
5590.000,0.0025,-0.9981,0.0163,-113.19,-606.79,123.08
5600.000,0.0064,-0.9982,0.0172,-111.67,-610.64,125.34
5610.000,0.0055,-0.9981,0.0162,-113.15,-612.29,122.58
5620.000,0.0047,-0.9992,0.0161,-113.12,-610.13,120.42
5630.000,0.0031,-0.9978,0.0162,-118.41,-608.66,118.95
5640.000,0.0052,-0.9979,0.0169,-116.89,-612.51,121.08
5650.000,0.0078,-0.9981,0.0158,-116.91,-613.21,120.11
5660.000,0.0032,-0.9967,0.0155,-122.00,-611.01,122.62
5670.000,0.0042,-0.9969,0.0153,-118.17,-612.34,121.22
5680.000,0.0035,-0.9991,0.0155,-112.96,-616.60,119.09
5690.000,0.0044,-0.9977,0.0153,-123.27,-615.99,118.02
5700.000,0.0053,-0.9974,0.0150,-120.71,-617.13,118.96
5710.000,0.0041,-0.9982,0.0156,-121.11,-615.22,117.48
5720.000,0.0066,-0.9966,0.0143,-119.99,-616.47,117.87
5730.000,0.0044,-0.9993,0.0173,-118.97,-616.34,119.10
5740.000,0.0064,-0.9976,0.0164,-116.11,-615.75,116.64
5750.000,0.0054,-0.9985,0.0145,-121.01,-616.75,115.81
5760.000,0.0061,-0.9984,0.0158,-123.23,-614.46,119.28
5770.000,0.0066,-0.9972,0.0144,-121.49,-612.73,117.93
5780.000,0.0044,-0.9979,0.0155,-117.83,-617.30,120.59
5790.000,0.0073,-0.9977,0.0154,-118.97,-617.00,120.87
5800.000,0.0032,-0.9993,0.0167,-117.60,-619.93,119.59
5810.000,0.0042,-0.9973,0.0161,-113.84,-618.47,122.07
5820.000,0.0044,-0.9982,0.0161,-117.44,-618.58,118.38
5830.000,0.0051,-0.9992,0.0162,-119.05,-621.26,120.67
5840.000,0.0046,-0.9970,0.0157,-120.92,-621.37,119.71
5850.000,0.0081,-0.9979,0.0164,-115.89,-619.46,116.85
5860.000,0.0063,-0.9986,0.0135,-109.40,-624.93,118.12
5870.000,0.0045,-0.9990,0.0161,-114.21,-622.34,119.13
5880.000,0.0070,-0.9988,0.0164,-112.30,-619.77,119.17
5890.000,0.0059,-0.9980,0.0163,-110.70,-617.23,117.15
5900.000,0.0043,-0.9992,0.0165,-124.29,-616.93,118.15
5910.000,0.0024,-0.9986,0.0161,-119.10,-622.41,117.09
5920.000,0.0036,-0.9976,0.0151,-123.33,-617.82,114.43
5930.000,0.0064,-0.9982,0.0157,-122.28,-623.33,115.16
5940.000,0.0054,-0.9981,0.0157,-120.94,-620.87,116.16
5950.000,0.0065,-0.9969,0.0156,-120.93,-620.85,117.53
5960.000,0.0068,-0.9987,0.0160,-126.25,-621.99,116.70
5970.000,0.0027,-0.9985,0.0168,-123.97,-622.33,115.73
5980.000,0.0063,-0.9983,0.0162,-118.69,-624.06,117.74
5990.000,0.0021,-0.9979,0.0138,-118.18,-620.33,119.86
6000.000,0.0055,-0.9978,0.0153,-117.95,-624.03,120.89
6010.000,0.0069,-0.9975,0.0164,-121.97,-623.30,117.76
6020.000,0.0056,-0.9991,0.0155,-115.94,-622.32,118.04
6030.000,0.0068,-0.9984,0.0149,-117.47,-619.16,115.90
6040.000,0.0078,-0.9971,0.0138,-112.79,-622.53,117.89
6050.000,0.0067,-0.9985,0.0156,-118.29,-625.46,116.49
6060.000,0.0075,-0.9973,0.0154,-114.65,-622.22,117.77
6070.000,0.0062,-0.9991,0.0163,-123.29,-624.66,116.51
6080.000,0.0041,-0.9973,0.0161,-122.41,-623.71,117.62
6090.000,0.0044,-0.9990,0.0155,-127.33,-626.36,116.77
6100.000,0.0060,-0.9998,0.0166,-121.40,-622.78,116.54
6110.000,0.0060,-1.0001,0.0153,-121.13,-623.35,115.71
6120.000,0.0076,-0.9984,0.0160,-125.14,-622.35,112.17
6130.000,0.0036,-0.9980,0.0155,-129.91,-626.45,116.22
6140.000,0.0049,-0.9992,0.0155,-117.31,-625.11,113.21
6150.000,0.0052,-0.9993,0.0140,-119.24,-622.55,116.54
6160.000,0.0058,-0.9978,0.0157,-122.30,-624.69,115.82
6170.000,0.0064,-0.9979,0.0151,-117.99,-622.64,112.01
6180.000,0.0071,-0.9983,0.0143,-117.58,-624.27,113.63
6190.000,0.0057,-0.9972,0.0160,-118.64,-627.15,112.76
6200.000,0.0067,-0.9981,0.0151,-119.93,-627.26,112.35
6210.000,0.0054,-0.9982,0.0135,-120.64,-627.50,114.00
6220.000,0.0063,-0.9989,0.0150,-125.59,-625.69,118.55
6230.000,0.0072,-0.9987,0.0148,-128.56,-622.78,115.87
6240.000,0.0068,-0.9982,0.0147,-115.72,-625.52,115.52
6250.000,0.0068,-0.9981,0.0148,-121.15,-624.05,114.33
6260.000,0.0053,-0.9990,0.0147,-122.27,-623.33,115.44
6270.000,0.0093,-0.9986,0.0146,-122.60,-624.73,112.54
6280.000,0.0057,-0.9981,0.0147,-126.31,-624.63,114.46
6290.000,0.0067,-0.9982,0.0145,-121.79,-627.35,113.18
6300.000,0.0059,-0.9982,0.0152,-116.47,-625.82,112.51
6310.000,0.0075,-0.9992,0.0143,-114.98,-622.84,112.14
6320.000,0.0063,-0.9984,0.0140,-123.22,-621.08,117.25
6330.000,0.0049,-0.9992,0.0146,-123.41,-629.53,111.91
6340.000,0.0045,-0.9992,0.0137,-122.59,-624.71,114.04
6350.000,0.0025,-0.9985,0.0144,-125.92,-624.85,109.26
6360.000,0.0086,-0.9978,0.0156,-124.28,-621.43,110.40
6370.000,0.0041,-0.9983,0.0143,-121.88,-615.83,111.86
6380.000,0.0072,-0.9982,0.0156,-121.29,-622.86,110.92
6390.000,0.0075,-0.9985,0.0145,-123.74,-623.10,109.97
6400.000,0.0024,-0.9997,0.0161,-118.75,-624.84,110.61
6410.000,0.0052,-0.9964,0.0131,-129.51,-626.90,114.30
6420.000,0.0085,-0.9980,0.0143,-125.90,-624.79,113.09
6430.000,0.0062,-0.9990,0.0149,-128.30,-621.64,109.45
6440.000,0.0074,-0.9985,0.0141,-128.27,-627.42,108.12
6450.000,0.0046,-0.9988,0.0156,-126.58,-623.93,115.30
6460.000,0.0063,-0.9986,0.0150,-128.09,-626.71,110.60
6470.000,0.0066,-0.9989,0.0145,-127.41,-620.81,110.83
6480.000,0.0062,-0.9994,0.0151,-121.77,-624.53,108.57
6490.000,0.0106,-0.9976,0.0155,-123.62,-624.87,111.03
6500.000,0.0074,-0.9992,0.0145,-127.50,-626.81,114.16
6510.000,0.0086,-0.9986,0.0139,-129.04,-623.39,110.38
6520.000,0.0070,-0.9992,0.0147,-125.83,-627.87,109.21
6530.000,0.0071,-0.9986,0.0145,-128.25,-627.78,111.95
6540.000,0.0052,-0.9987,0.0143,-132.29,-628.69,109.89
6550.000,0.0052,-0.9993,0.0140,-127.24,-626.99,111.00
6560.000,0.0072,-0.9980,0.0149,-129.21,-626.75,115.80
6570.000,0.0063,-0.9988,0.0151,-131.44,-622.09,111.37
6580.000,0.0053,-0.9979,0.0145,-125.62,-624.42,110.63
6590.000,0.0089,-0.9993,0.0145,-123.24,-627.89,111.53
6600.000,0.0057,-0.9989,0.0145,-125.90,-624.14,110.64
6610.000,0.0088,-0.9990,0.0152,-123.36,-626.78,112.23
6620.000,0.0083,-0.9978,0.0133,-131.10,-626.63,111.29
6630.000,0.0065,-0.9994,0.0157,-126.13,-628.42,108.65
6640.000,0.0065,-0.9986,0.0130,-131.00,-628.72,109.34
6650.000,0.0037,-0.9981,0.0143,-124.25,-628.55,112.21
6660.000,0.0060,-0.9987,0.0141,-126.10,-628.75,114.94
6670.000,0.0047,-0.9988,0.0151,-121.00,-630.96,111.61
6680.000,0.0080,-0.9987,0.0141,-129.97,-628.69,113.17
6690.000,0.0081,-0.9992,0.0143,-127.96,-634.95,110.60
6700.000,0.0038,-0.9984,0.0150,-128.26,-628.46,112.35
6710.000,0.0072,-0.9997,0.0141,-121.02,-631.92,112.01
6720.000,0.0075,-0.9987,0.0136,-124.37,-632.75,106.25
6730.000,0.0073,-0.9996,0.0135,-123.03,-630.69,107.92
6740.000,0.0073,-1.0001,0.0153,-129.65,-633.14,109.95
6750.000,0.0062,-0.9991,0.0153,-133.07,-634.11,114.19
6760.000,0.0078,-0.9992,0.0134,-128.77,-633.11,112.96
6770.000,0.0073,-0.9970,0.0137,-127.90,-632.98,114.19
6780.000,0.0081,-0.9986,0.0140,-124.33,-633.60,114.31
6790.000,0.0065,-0.9986,0.0140,-129.19,-633.10,113.51
6800.000,0.0071,-0.9968,0.0143,-124.80,-635.01,111.28
6810.000,0.0056,-0.9993,0.0140,-131.29,-635.88,107.58
6820.000,0.0088,-0.9982,0.0136,-129.64,-632.07,107.37
6830.000,0.0079,-0.9983,0.0137,-136.43,-636.02,109.51
6840.000,0.0067,-0.9993,0.0152,-142.73,-635.88,110.21
6850.000,0.0067,-0.9984,0.0141,-132.37,-634.55,112.67
6860.000,0.0063,-0.9989,0.0144,-131.48,-632.65,112.56
6870.000,0.0078,-0.9979,0.0147,-130.93,-634.29,114.04
6880.000,0.0076,-0.9998,0.0137,-139.70,-635.37,112.13
6890.000,0.0068,-0.9986,0.0132,-136.06,-632.42,112.44
6900.000,0.0072,-1.0009,0.0143,-133.96,-635.47,113.48
6910.000,0.0073,-1.0000,0.0143,-136.42,-634.94,108.16
6920.000,0.0110,-0.9977,0.0144,-131.88,-637.50,109.20
6930.000,0.0072,-0.9985,0.0145,-133.47,-630.20,107.95
6940.000,0.0075,-0.9989,0.0140,-127.95,-634.67,111.02
6950.000,0.0062,-0.9971,0.0135,-129.05,-632.18,110.92
6960.000,0.0089,-0.9982,0.0147,-129.59,-637.42,108.38
6970.000,0.0057,-0.9980,0.0128,-125.89,-631.15,110.11
6980.000,0.0082,-0.9974,0.0127,-128.39,-635.09,109.78
6990.000,0.0072,-1.0004,0.0133,-133.04,-637.78,106.87
7000.000,0.0080,-0.9995,0.0127,-121.29,-637.72,108.76
7010.000,0.0075,-0.9983,0.0149,-131.16,-637.64,109.61
7020.000,0.0088,-0.9987,0.0142,-129.03,-639.58,112.04
7030.000,0.0070,-0.9987,0.0149,-126.63,-640.36,109.01
7040.000,0.0083,-0.9982,0.0129,-127.98,-636.46,110.85
7050.000,0.0077,-0.9980,0.0139,-122.66,-634.53,109.09
7060.000,0.0066,-0.9999,0.0133,-118.69,-636.28,107.55
7070.000,0.0084,-0.9993,0.0133,-123.99,-636.58,107.97
7080.000,0.0079,-0.9990,0.0133,-125.67,-633.55,105.83
7090.000,0.0067,-0.9995,0.0137,-126.48,-639.15,107.38
7100.000,0.0094,-0.9994,0.0148,-122.04,-639.36,108.19
7110.000,0.0075,-0.9994,0.0150,-130.66,-633.81,109.81
7120.000,0.0100,-0.9987,0.0140,-129.91,-632.29,111.06
7130.000,0.0088,-0.9994,0.0133,-129.78,-632.18,109.15
7140.000,0.0069,-0.9983,0.0121,-127.54,-636.05,111.13
7150.000,0.0074,-0.9976,0.0141,-127.72,-637.44,109.88
7160.000,0.0076,-0.9974,0.0139,-127.26,-635.27,108.27
7170.000,0.0061,-0.9982,0.0131,-123.86,-636.60,106.32
7180.000,0.0076,-0.9985,0.0138,-126.30,-635.91,103.19
7190.000,0.0097,-0.9986,0.0148,-131.05,-638.63,108.22
7200.000,0.0085,-0.9980,0.0131,-122.45,-638.00,107.12
7210.000,0.0095,-0.9992,0.0139,-130.05,-638.79,107.67
7220.000,0.0065,-0.9999,0.0145,-126.50,-640.52,107.50
7230.000,0.0046,-0.9993,0.0122,-133.30,-637.19,109.62
7240.000,0.0096,-1.0005,0.0133,-132.46,-636.98,106.20
7250.000,0.0074,-0.9981,0.0145,-133.55,-635.79,110.88
7260.000,0.0073,-0.9986,0.0133,-132.23,-639.88,105.47
7270.000,0.0085,-0.9990,0.0135,-140.68,-641.42,110.25
7280.000,0.0053,-0.9987,0.0144,-132.78,-638.48,106.04
7290.000,0.0067,-0.9984,0.0129,-135.53,-640.35,105.88
7300.000,0.0073,-0.9985,0.0137,-134.62,-636.82,104.15
7310.000,0.0081,-0.9987,0.0136,-138.76,-635.92,103.63
7320.000,0.0074,-0.9993,0.0135,-134.58,-634.48,104.60
7330.000,0.0074,-0.9989,0.0137,-144.09,-638.13,104.70
7340.000,0.0086,-0.9985,0.0141,-134.91,-638.28,107.83
7350.000,0.0066,-0.9982,0.0145,-141.88,-636.45,110.06
7360.000,0.0072,-0.9987,0.0145,-138.81,-631.89,106.71
7370.000,0.0077,-0.9989,0.0141,-137.06,-638.36,108.24
7380.000,0.0097,-0.9981,0.0135,-145.48,-636.03,105.42
7390.000,0.0074,-0.9992,0.0134,-143.86,-634.64,109.14
7400.000,0.0102,-0.9971,0.0134,-142.77,-637.56,108.40
7410.000,0.0066,-0.9990,0.0141,-140.35,-637.77,106.75
7420.000,0.0071,-0.9977,0.0137,-129.40,-633.08,104.48
7430.000,0.0079,-0.9982,0.0139,-134.06,-639.25,108.22
7440.000,0.0105,-0.9997,0.0139,-129.48,-639.21,108.35
7450.000,0.0088,-0.9993,0.0136,-133.01,-637.17,110.99
7460.000,0.0076,-0.9996,0.0145,-131.05,-637.70,105.36
7470.000,0.0080,-0.9980,0.0128,-134.21,-638.20,104.81
7480.000,0.0091,-0.9988,0.0126,-134.78,-638.44,106.04
7490.000,0.0118,-0.9998,0.0144,-136.44,-635.37,107.19
7500.000,0.0077,-1.0001,0.0143,-133.41,-634.73,108.70
7510.000,0.0077,-0.9982,0.0128,-133.44,-636.39,107.72
7520.000,0.0070,-0.9996,0.0133,-128.82,-633.76,106.11
7530.000,0.0083,-0.9977,0.0126,-140.35,-637.76,107.16
7540.000,0.0066,-0.9987,0.0130,-133.24,-640.13,105.74
7550.000,0.0058,-0.9979,0.0131,-139.76,-635.76,104.04
7560.000,0.0081,-0.9984,0.0129,-142.58,-634.82,107.90
7570.000,0.0095,-0.9998,0.0137,-134.13,-634.32,106.93
7580.000,0.0078,-0.9994,0.0145,-140.86,-635.65,110.34
7590.000,0.0078,-0.9978,0.0126,-137.85,-634.92,107.89
7600.000,0.0066,-0.9990,0.0146,-139.86,-634.49,106.12
7610.000,0.0085,-0.9996,0.0140,-140.04,-637.21,107.99
7620.000,0.0082,-0.9992,0.0135,-142.61,-634.74,103.52
7630.000,0.0097,-0.9990,0.0139,-140.93,-638.57,107.29
7640.000,0.0106,-0.9999,0.0123,-143.80,-637.99,105.52
7650.000,0.0099,-1.0005,0.0154,-141.60,-636.07,108.15
7660.000,0.0048,-0.9992,0.0135,-142.29,-634.42,107.36
7670.000,0.0064,-0.9984,0.0131,-139.16,-636.12,108.14
7680.000,0.0083,-0.9973,0.0127,-146.96,-632.63,110.41
7690.000,0.0065,-0.9998,0.0128,-140.61,-637.44,110.04
7700.000,0.0086,-0.9998,0.0132,-134.25,-634.16,108.85
7710.000,0.0098,-0.9984,0.0134,-137.01,-635.35,107.60
7720.000,0.0099,-0.9976,0.0127,-132.09,-633.77,110.08
7730.000,0.0081,-0.9984,0.0124,-139.29,-635.43,108.84
7740.000,0.0098,-0.9986,0.0133,-130.34,-632.69,111.47
7750.000,0.0095,-0.9993,0.0131,-137.99,-634.64,108.30
7760.000,0.0088,-0.9986,0.0135,-131.12,-633.85,106.11
7770.000,0.0082,-0.9996,0.0129,-123.53,-633.87,105.96
7780.000,0.0073,-0.9988,0.0137,-130.62,-630.01,106.44
7790.000,0.0096,-0.9996,0.0137,-132.07,-631.21,106.70
7800.000,0.0106,-0.9996,0.0141,-132.34,-630.38,106.99
7810.000,0.0090,-0.9980,0.0125,-127.08,-633.21,108.71
7820.000,0.0110,-1.0000,0.0137,-132.80,-632.28,107.51
7830.000,0.0071,-0.9983,0.0131,-132.59,-629.25,108.65
7840.000,0.0104,-1.0002,0.0143,-132.25,-633.79,108.30
7850.000,0.0075,-0.9991,0.0144,-131.37,-633.25,109.00
7860.000,0.0070,-0.9997,0.0145,-133.63,-637.25,104.28
7870.000,0.0098,-0.9994,0.0125,-135.48,-638.27,107.55
7880.000,0.0079,-0.9996,0.0127,-130.99,-635.87,109.36
7890.000,0.0079,-0.9983,0.0141,-139.87,-635.82,109.24
7900.000,0.0090,-0.9998,0.0133,-136.50,-632.43,110.80
7910.000,0.0068,-0.9998,0.0138,-140.39,-633.85,111.88
7920.000,0.0101,-0.9993,0.0135,-140.06,-639.89,112.74
7930.000,0.0105,-0.9987,0.0128,-134.85,-636.58,111.41
7940.000,0.0091,-0.9979,0.0111,-136.31,-637.13,109.35
7950.000,0.0114,-0.9994,0.0139,-130.25,-635.44,111.15
7960.000,0.0095,-0.9983,0.0135,-135.84,-634.54,108.30
7970.000,0.0083,-0.9983,0.0121,-140.15,-636.20,110.88
7980.000,0.0074,-0.9989,0.0133,-130.72,-635.50,106.36
7990.000,0.0060,-0.9997,0.0129,-130.10,-633.05,105.98
8000.000,0.0098,-0.9993,0.0112,-130.87,-636.45,107.16
8010.000,0.0096,-0.9981,0.0132,-136.01,-636.32,108.41
8020.000,0.0091,-0.9994,0.0119,-138.22,-632.27,110.12
8030.000,0.0098,-0.9978,0.0130,-138.59,-634.27,104.06
8040.000,0.0082,-0.9984,0.0133,-132.46,-637.24,106.88
8050.000,0.0080,-0.9988,0.0117,-131.39,-633.94,108.57
8060.000,0.0095,-0.9991,0.0150,-130.41,-634.93,108.14
8070.000,0.0061,-0.9993,0.0136,-126.57,-636.78,109.20
8080.000,0.0086,-0.9996,0.0137,-127.77,-640.46,109.83
8090.000,0.0073,-0.9985,0.0128,-132.30,-636.41,107.58
8100.000,0.0085,-0.9988,0.0125,-128.98,-635.36,108.82
8110.000,0.0078,-0.9994,0.0134,-134.89,-629.62,108.24
8120.000,0.0109,-0.9984,0.0132,-130.27,-634.81,106.91
8130.000,0.0089,-0.9990,0.0131,-135.71,-634.57,106.79
8140.000,0.0095,-0.9990,0.0129,-132.07,-639.31,107.12
8150.000,0.0087,-0.9988,0.0127,-140.25,-631.48,104.66
8160.000,0.0075,-1.0002,0.0140,-136.83,-632.38,103.95
8170.000,0.0085,-1.0011,0.0139,-150.29,-634.09,109.29
8180.000,0.0112,-0.9990,0.0140,-145.08,-630.64,108.38
8190.000,0.0051,-0.9993,0.0135,-137.81,-632.58,108.20
8200.000,0.0072,-0.9983,0.0133,-140.46,-634.65,103.51
8210.000,0.0077,-1.0000,0.0136,-145.48,-636.03,105.28
8220.000,0.0091,-0.9996,0.0130,-141.46,-634.63,103.65
8230.000,0.0083,-0.9987,0.0136,-145.74,-634.52,105.17
8240.000,0.0077,-0.9997,0.0129,-141.94,-637.90,104.70
8250.000,0.0090,-0.9981,0.0132,-136.41,-634.79,109.25
8260.000,0.0098,-1.0000,0.0144,-143.63,-636.89,105.81
8270.000,0.0103,-0.9987,0.0121,-131.29,-635.76,106.22
8280.000,0.0070,-0.9999,0.0141,-145.54,-632.82,109.17
8290.000,0.0086,-0.9989,0.0119,-137.03,-635.54,103.90
8300.000,0.0049,-0.9993,0.0131,-139.59,-634.78,105.29
8310.000,0.0065,-0.9985,0.0121,-141.38,-630.49,104.82
8320.000,0.0117,-0.9994,0.0138,-143.50,-636.79,103.35
8330.000,0.0107,-1.0004,0.0134,-144.45,-633.07,102.59
8340.000,0.0080,-1.0001,0.0122,-138.88,-634.81,104.47
8350.000,0.0062,-0.9986,0.0124,-139.75,-636.01,105.82
8360.000,0.0087,-0.9994,0.0127,-137.36,-636.80,101.56
8370.000,0.0063,-0.9985,0.0136,-131.14,-634.68,105.14
8380.000,0.0072,-0.9995,0.0120,-137.76,-636.73,105.94
8390.000,0.0095,-0.9989,0.0127,-142.50,-636.02,100.90
8400.000,0.0071,-0.9989,0.0140,-141.38,-638.06,103.60
8410.000,0.0088,-0.9984,0.0130,-146.54,-639.03,105.24
8420.000,0.0082,-1.0004,0.0139,-141.18,-643.02,103.24
8430.000,0.0079,-0.9983,0.0122,-134.81,-640.09,106.15
8440.000,0.0078,-0.9993,0.0130,-139.05,-637.77,108.66
8450.000,0.0119,-0.9992,0.0145,-142.92,-637.30,106.63
8460.000,0.0077,-0.9983,0.0136,-138.51,-639.30,107.54
8470.000,0.0096,-1.0003,0.0147,-141.56,-641.46,106.28
8480.000,0.0111,-0.9994,0.0139,-138.17,-636.30,107.18
8490.000,0.0081,-0.9991,0.0125,-132.78,-638.22,105.08
8500.000,0.0087,-0.9996,0.0133,-144.21,-637.42,105.94
8510.000,0.0095,-0.9996,0.0135,-139.65,-638.21,105.51
8520.000,0.0084,-0.9989,0.0130,-133.57,-635.16,106.50
8530.000,0.4429,0.8968,-0.0706,-6.60,391.89,-56.01
8540.000,-0.6129,-0.6834,-0.4132,-400.19,-76.57,-138.65
8550.000,0.0119,0.0112,-1.0028,-165.82,87.74,-411.94
8560.000,-0.0046,0.0043,-1.0013,-112.51,134.51,-465.92
8570.000,-0.0044,0.0038,-0.9990,-114.38,135.59,-470.00
8580.000,0.2449,-0.0611,-0.8042,31.53,132.09,-484.05
8590.000,0.0071,-0.0042,-0.9827,11.38,175.73,-467.56
8600.000,-0.0032,0.0027,-0.9999,7.96,179.02,-473.11
8610.000,-0.0040,0.0040,-0.9997,0.26,179.51,-469.53
8620.000,-0.0035,0.0036,-0.9976,8.42,178.28,-466.55
8630.000,-0.0028,0.0022,-0.9995,8.94,183.88,-467.97
8640.000,-0.0031,0.0030,-0.9994,18.16,179.14,-469.16
8650.000,-0.0024,0.0038,-0.9989,9.47,181.41,-467.19
8660.000,0.5639,0.8822,-0.0057,20.28,439.59,-103.07
